Folder: NeXLSpectrum/notebook/K309

Note: README.md
# ![](NeXL_sm.png)Spectrum
## Microanalytical X-ray Spectrum Analysis
| **Documentation**                        | **Build Status**                  |
|:----------------------------------------:|:---------------------------------:|
| [![][docs-stable-img]][docs-stable-url]  | [![][travis-img]][travis-url]     |


[docs-stable-img]: https://img.shields.io/badge/docs-stable-blue.svg
[docs-stable-url]: https://pages.nist.gov/NeXLSpectrum.jl
[travis-img]: https://travis-ci.com/usnistgov/NeXLSpectrum.jl.svg?branch=master
[travis-url]: https://travis-ci.com/usnistgov/NeXLSpectrum.jl

`NeXLSpectrum` is a library of tools for manipulating EDS spectrum within the
NeXL framework. `NeXLSpectrum` depends on `NeXLUncertainties`, `NeXLCore` and
`NeXLMatrixCorrection` and loading `NeXLSpectrum` will also make these
libraries available.

Primarily, `NeXLSpectrum`
  * Implements the `Spectrum` type to represent individual EDS spectra
    * Reads `Spectrum` objects from disk files (or other streams) in EMSA, Bruker and ASPEX formats
    * Writes `Spectrum` objects to a disk file in EMSA format
  * Provides utilities and other low level tools to interogate and manipulate `Spectrum` objects
  * Implements the `HyperSpectrum` type to represent hyper-spectra (linescan, image, cube, ...)
    * The individual pixels in a hyper-spectrum are visible as `Spectrum` objects
    * Reads `HyperSpectrum` objects from LISPIX-style RPL/RAW files
    * Writes `HyperSpectrum` objects to RPL/RAW files

  * Provides data types to define detector properties
  * Extends `Gadfly.jl` to plot spectra and spectrum-related items
  * Provides algorithms to perform Schamber-style filter-fitting of spectra
    * Implements a basic weighted LLSQ fit algorithm
      * Fits characteristic, escape, Compton and other features
    * Implements a 'vector-based' quick-quant algorithm for processing hyper-spectra

File: K309.msa
#FORMAT      : EMSA/MAS SPECTRAL DATA FILE
#VERSION     : 1.0
#TITLE       : Bruker AXS spectrum K309
#DATE        : 09-JUL-2008
#TIME        : 14:04
#OWNER       : Bruker AXS
#NPOINTS     : 4096.0
#NCOLUMNS    : 4.0
#XUNITS      : keV
#YUNITS      : Counts
#DATATYPE    : Y
#XPERCHAN    : 0.0050000
#OFFSET      : -0.4757000
#SIGNALTYPE  : EDS
#CHOFFSET    : 95
#BEAMKV   -kV: 15.0
#PROBECUR -nA: 3.93
#ELEVANGLE   : 35.0
#AZIMANGLE   : 0.0
#XTILTSTGE   : 0.0
#YTILTSTGE   : 0.0
#LIVETIME  -s: 59.339
#REALTIME  -s: 64.307
##RTDET      : XFlash 4040
#EDSDET      :
#TDEADLYR -cm: 0.000008
#TACTLYR  -cm: 0.045
##FANO       : 0.1030000
##MNFWHM -keV: 0.1221482
##IDENT      :
#SPECTRUM    :
         0.0,         0.0,         0.0,         0.0,
         0.0,         0.0,         0.0,         0.0,
         0.0,         0.0,         0.0,         0.0,
         0.0,         0.0,         0.0,         0.0,
    165569.0,    142933.0,    111661.0,     78008.0,
       110.0,       105.0,       111.0,       118.0,
       517.0,       593.0,       684.0,       778.0,
       412.0,       412.0,       405.0,       403.0,
      7545.0,     10241.0,     13486.0,     16938.0,
      1001.0,       951.0,       973.0,      1002.0,
      2324.0,      2233.0,      1904.0,      1660.0,
       638.0,       657.0,       627.0,       604.0,
       815.0,       833.0,       833.0,       840.0,
       802.0,       802.0,       810.0,       832.0,
       819.0,       841.0,       822.0,       815.0,
       924.0,       906.0,       935.0,       895.0,
      4594.0,      5502.0,      6605.0,      7782.0,
      1771.0,      1600.0,      1446.0,      1244.0,
      5327.0,      6499.0,      8518.0,     10387.0,
      5600.0,      4577.0,      3824.0,      3123.0,
       671.0,       650.0,       650.0,       683.0,
       669.0,       609.0,       660.0,       620.0,
       644.0,       636.0,       612.0,       610.0,
       606.0,       629.0,       669.0,       646.0,
       622.0,       582.0,       593.0,       610.0,
       580.0,       586.0,       574.0,       600.0,
       530.0,       558.0,       508.0,       591.0,
       517.0,       537.0,       556.0,       531.0,
       450.0,       515.0,       568.0,       518.0,
       560.0,       488.0,       525.0,       505.0,
       492.0,       542.0,       482.0,       509.0,
       477.0,       465.0,       493.0,       482.0,
       482.0,       419.0,       442.0,       437.0,
       485.0,       456.0,       484.0,       426.0,
      1153.0,      1275.0,      1536.0,      1819.0,
      6011.0,      5515.0,      5065.0,      4675.0,
       445.0,       406.0,       464.0,       363.0,
       878.0,       880.0,      1031.0,      1024.0,
       611.0,       638.0,       606.0,       531.0,
       346.0,       315.0,       330.0,       301.0,
       371.0,       377.0,       393.0,       363.0,
      2090.0,      2187.0,      2360.0,      2312.0,
       566.0,       537.0,       484.0,       464.0,
       292.0,       318.0,       298.0,       335.0,
      1068.0,      1032.0,      1097.0,      1139.0,
       609.0,       606.0,       563.0,       530.0,
       274.0,       293.0,       287.0,       305.0,
       574.0,       570.0,       555.0,       559.0,
       230.0,       241.0,       237.0,       228.0,
       246.0,       217.0,       249.0,       244.0,
       338.0,       344.0,       358.0,       353.0,
       204.0,       205.0,       229.0,       199.0,
       237.0,       250.0,       253.0,       236.0,
       222.0,       207.0,       224.0,       235.0,
       184.0,       191.0,       197.0,       190.0,
       164.0,       186.0,       194.0,       153.0,
       214.0,       231.0,       217.0,       245.0,
      1539.0,      1611.0,      1660.0,      1808.0,
       707.0,       665.0,       578.0,       519.0,
       155.0,       171.0,       151.0,       160.0,
       166.0,       172.0,       139.0,       157.0,
       172.0,       177.0,       143.0,       142.0,
       202.0,       226.0,       231.0,       253.0,
       330.0,       312.0,       328.0,       314.0,
       150.0,       157.0,       129.0,       130.0,
       110.0,       104.0,       136.0,       128.0,
       138.0,       159.0,       128.0,       118.0,
       129.0,       114.0,       118.0,       113.0,
       121.0,       114.0,       113.0,        98.0,
       107.0,       108.0,       113.0,        98.0,
       121.0,       117.0,       124.0,       110.0,
       100.0,        85.0,       109.0,       113.0,
        92.0,       115.0,        99.0,        98.0,
       102.0,        90.0,        92.0,       111.0,
       103.0,       104.0,        91.0,       120.0,
        79.0,        90.0,        92.0,        82.0,
        85.0,        83.0,        84.0,        84.0,
        80.0,        88.0,        87.0,        87.0,
        82.0,        68.0,        78.0,        71.0,
        71.0,        80.0,        82.0,        84.0,
        76.0,        78.0,        79.0,        78.0,
        67.0,        79.0,        70.0,        61.0,
        72.0,        64.0,        60.0,        69.0,
        76.0,        66.0,        73.0,        78.0,
        61.0,        60.0,        68.0,        71.0,
        48.0,        51.0,        63.0,        63.0,
        64.0,        75.0,        63.0,        58.0,
        55.0,        54.0,        53.0,        48.0,
        66.0,        61.0,        54.0,        58.0,
        56.0,        40.0,        43.0,        48.0,
        55.0,        58.0,        51.0,        53.0,
        54.0,        58.0,        43.0,        62.0,
        51.0,        49.0,        62.0,        50.0,
        40.0,        53.0,        43.0,        42.0,
        47.0,        55.0,        34.0,        33.0,
        42.0,        47.0,        50.0,        43.0,
        38.0,        34.0,        30.0,        30.0,
        31.0,        41.0,        34.0,        39.0,
        36.0,        26.0,        37.0,        40.0,
        22.0,        34.0,        36.0,        44.0,
        45.0,        21.0,        35.0,        33.0,
        24.0,        27.0,        20.0,        35.0,
        31.0,        31.0,        21.0,        24.0,
        31.0,        33.0,        28.0,        34.0,
        26.0,        22.0,        30.0,        39.0,
        29.0,        23.0,        25.0,        16.0,
        31.0,        14.0,        21.0,        38.0,
        20.0,        30.0,        17.0,        18.0,
        14.0,        19.0,        26.0,        20.0,
        23.0,        13.0,        18.0,        16.0,
        11.0,        13.0,        18.0,        29.0,
        12.0,        15.0,        15.0,        13.0,
        17.0,        13.0,        12.0,        16.0,
        13.0,        13.0,        15.0,        18.0,
        13.0,        13.0,        13.0,         5.0,
         8.0,        11.0,         8.0,        13.0,
        10.0,        11.0,        13.0,        13.0,
         7.0,         9.0,         6.0,        12.0,
         5.0,         7.0,        10.0,         7.0,
        14.0,         6.0,         5.0,         4.0,
         7.0,         3.0,         6.0,         7.0,
         8.0,         5.0,         7.0,         3.0,
         4.0,         7.0,         6.0,         5.0,
         1.0,         4.0,         3.0,         6.0,
         5.0,         3.0,         4.0,         4.0,
         4.0,         0.0,         3.0,         0.0,
         2.0,         3.0,         0.0,         2.0,
         0.0,         2.0,         2.0,         0.0,
         0.0,         1.0,         3.0,         0.0,
         1.0,         0.0,         0.0,         0.0,
         0.0,         0.0,         0.0,         0.0,
         0.0,         0.0,         0.0,         0.0,
         0.0,         0.0,         0.0,         0.0,
         0.0,         0.0,         0.0,         0.0,
         0.0,         0.0,         0.0,         0.0,
         0.0,         0.0,         0.0,         0.0,
         0.0,         0.0,         0.0,         0.0,
         0.0,         0.0,         0.0,         0.0,
         0.0,         0.0,         0.0,         0.0,
         1.0,         0.0,         0.0,         0.0,
         0.0,         0.0,         0.0,         0.0,
         0.0,         0.0,         0.0,         0.0,
         0.0,         0.0,         0.0,         0.0,
         0.0,         0.0,         0.0,         0.0,
         0.0,         0.0,         0.0,         0.0,
         0.0,         0.0,         0.0,         0.0,
         0.0,         0.0,         0.0,         0.0,
         0.0,         0.0,         0.0,         0.0,
         0.0,         0.0,         0.0,         0.0,
         0.0,         0.0,         0.0,         0.0,
         0.0,         0.0,         0.0,         0.0,
         0.0,         0.0,         0.0,         0.0,
         0.0,         0.0,         0.0,         0.0,
         0.0,         0.0,         0.0,         0.0,
         0.0,         0.0,         0.0,         0.0,
         0.0,         0.0,         0.0,         0.0,
         0.0,         0.0,         0.0,         0.0,
         0.0,         0.0,         0.0,         0.0,
         0.0,         0.0,         0.0,         0.0,
         0.0,         0.0,         0.0,         0.0,
         0.0,         0.0,         0.0,         0.0,
         0.0,         0.0,         0.0,         0.0,
         0.0,         0.0,         0.0,         0.0,
         0.0,         0.0,         0.0,         0.0,
         0.0,         0.0,         0.0,         0.0,
         0.0,         0.0,         0.0,         0.0,
         0.0,         0.0,         0.0,         0.0,
         0.0,         0.0,         0.0,         0.0,
         0.0,         0.0,         0.0,         0.0,
         0.0,         0.0,         0.0,         0.0,
         0.0,         0.0,         0.0,         0.0,
         0.0,         0.0,         0.0,         0.0,
#ENDOFDATA   :

File: Zn std.msa
#FORMAT      : EMSA/MAS Spectral Data File
#VERSION     : 1.0
#TITLE       : Bruker AXS spectrum Zn
#DATE        : 29-JUL-2008
#TIME        : 10:26
#OWNER       : Bruker AXS
#NPOINTS     : 4096
#NCOLUMNS    : 4
#XUNITS      : eV
#YUNITS      : counts
#DATATYPE    : Y
#XPERCHAN    : 5.00409
#OFFSET      : -477.824
#BEAMKV      : 15
#SIGNALTYPE  : EDS
#ELEVANGLE   : 40
#AZIMANGLE   : 180
#LIVETIME    : 59.358
#REALTIME    : 64.71
#PROBECUR    : 2.5
#TAUWIND     : 0
#TDEADLYR    : 0.00001
#TACTLYR     : 0.045
#TALWIND     : 0.003
#CHOFFSET    : 0.0
#XLABEL      : Energy (eV)
#YLABEL      : Counts
#EDSDET      : SDDUTW
##D2STDCMP   : Zn,(Zn:100.0),5.0
#SPECTRUM    :
0, 0, 0, 0,
0, 0, 0, 0,
0, 0, 0, 0,
0, 0, 0, 0,
0, 0, 0, 0,
1, 7, 22, 88,
212595, 182782, 142327, 99653,
33, 78, 129, 165,
139, 137, 137, 139,
392, 445, 501, 546,
227, 211, 228, 230,
353, 352, 370, 387,
695, 788, 887, 926,
765, 683, 635, 712,
902, 900, 942, 927,
1293, 1259, 1193, 1232,
1623, 1652, 1778, 1902,
7392, 7652, 7505, 7485,
15470, 20221, 26646, 33619,
53605, 44284, 36098, 28390,
924, 831, 737, 656,
439, 449, 419, 412,
414, 458, 406, 383,
432, 463, 479, 481,
505, 480, 495, 546,
519, 541, 557, 545,
499, 581, 532, 576,
553, 551, 546, 607,
605, 623, 610, 643,
628, 579, 617, 623,
561, 589, 618, 557,
657, 721, 698, 731,
627, 606, 583, 565,
566, 607, 538, 571,
607, 672, 547, 586,
658, 563, 623, 597,
583, 603, 597, 578,
594, 590, 588, 547,
584, 633, 580, 636,
597, 589, 588, 563,
531, 587, 553, 529,
580, 601, 545, 593,
560, 524, 606, 540,
520, 517, 584, 551,
520, 535, 543, 552,
513, 512, 499, 513,
532, 507, 510, 515,
550, 490, 455, 488,
497, 481, 483, 501,
483, 500, 486, 512,
451, 475, 446, 473,
432, 451, 477, 489,
482, 430, 421, 429,
478, 434, 406, 445,
407, 417, 408, 442,
420, 430, 415, 428,
398, 391, 402, 408,
385, 398, 380, 388,
426, 378, 411, 410,
338, 368, 380, 388,
371, 412, 364, 364,
379, 345, 378, 338,
355, 343, 367, 371,
329, 347, 343, 329,
350, 314, 350, 344,
306, 327, 354, 340,
350, 327, 306, 336,
295, 310, 289, 275,
310, 300, 304, 305,
288, 304, 296, 299,
304, 283, 297, 268,
300, 300, 263, 295,
292, 258, 278, 287,
282, 260, 260, 306,
273, 277, 258, 257,
246, 260, 249, 265,
271, 270, 245, 278,
245, 271, 236, 252,
256, 226, 251, 237,
247, 218, 255, 210,
253, 233, 211, 200,
233, 206, 230, 232,
223, 233, 239, 193,
227, 226, 226, 220,
217, 211, 205, 205,
232, 196, 216, 229,
226, 218, 214, 219,
207, 216, 208, 189,
213, 192, 200, 184,
220, 174, 203, 182,
177, 206, 175, 168,
174, 154, 151, 198,
168, 189, 159, 180,
142, 194, 167, 154,
168, 185, 183, 178,
179, 178, 170, 169,
169, 155, 157, 158,
183, 158, 158, 160,
185, 167, 161, 156,
153, 171, 163, 164,
171, 167, 179, 141,
153, 146, 144, 128,
142, 145, 133, 154,
140, 137, 134, 108,
156, 132, 122, 157,
158, 150, 139, 114,
114, 136, 110, 133,
128, 142, 128, 129,
143, 129, 143, 120,
142, 122, 126, 135,
129, 133, 133, 134,
150, 148, 159, 151,
474, 458, 610, 706,
2529, 2754, 3056, 3197,
3909, 3756, 3774, 3622,
1387, 1277, 1111, 976,
200, 182, 174, 167,
122, 92, 106, 112,
109, 101, 93, 113,
101, 111, 82, 91,
107, 121, 95, 103,
90, 106, 94, 112,
85, 109, 108, 105,
109, 102, 88, 104,
220, 212, 230, 253,
517, 540, 555, 559,
511, 495, 500, 501,
202, 170, 186, 167,
95, 81, 70, 99,
70, 81, 65, 72,
86, 71, 73, 68,
76, 86, 73, 61,
81, 70, 60, 76,
71, 71, 53, 81,
71, 65, 69, 75,
65, 68, 67, 68,
56, 54, 54, 56,
65, 68, 72, 59,
70, 57, 56, 57,
58, 49, 52, 57,
51, 51, 53, 57,
54, 61, 71, 63,
49, 56, 55, 49,
51, 51, 31, 60,
51, 53, 54, 35,
46, 45, 53, 43,
38, 52, 45, 46,
42, 49, 35, 51,
46, 35, 38, 37,
48, 33, 44, 50,
42, 32, 35, 46,
53, 49, 51, 28,
41, 26, 41, 35,
39, 42, 37, 31,
31, 44, 32, 28,
37, 32, 39, 46,
35, 36, 38, 37,
27, 31, 28, 33,
30, 30, 38, 28,
24, 26, 28, 35,
33, 26, 30, 25,
22, 19, 29, 29,
31, 28, 21, 28,
24, 28, 19, 27,
27, 21, 27, 28,
23, 30, 14, 29,
19, 25, 11, 29,
13, 22, 16, 29,
23, 23, 27, 27,
15, 23, 18, 23,
12, 15, 18, 14,
20, 11, 18, 15,
16, 22, 12, 17,
23, 16, 16, 20,
18, 21, 14, 8,
11, 15, 16, 16,
11, 17, 19, 13,
10, 17, 10, 7,
11, 14, 13, 15,
17, 10, 11, 11,
11, 14, 12, 5,
13, 10, 15, 13,
8, 14, 12, 6,
8, 4, 3, 11,
6, 5, 5, 9,
5, 8, 5, 6,
9, 4, 9, 7,
5, 4, 4, 9,
4, 1, 7, 4,
4, 4, 2, 3,
2, 4, 4, 3,
3, 5, 3, 3,
3, 1, 0, 0,
0, 1, 0, 0,
1, 0, 1, 0,
1, 0, 0, 0,
0, 0, 0, 0,
0, 0, 1, 0,
0, 0, 0, 0,
0, 0, 0, 0,
0, 0, 1, 0,
0, 0, 0, 0,
0, 0, 0, 0,
0, 0, 0, 0,
0, 0, 0, 0,
0, 0, 0, 0,
0, 0, 0, 0,
0, 0, 0, 0,
0, 0, 0, 0,
0, 0, 0, 0,
0, 0, 0, 0,
0, 0, 0, 0,
0, 0, 0, 0,
1, 0, 0, 1,
0, 0, 0, 0,
0, 0, 0, 0,
0, 0, 0, 0,
0, 0, 0, 0,
0, 0, 0, 0,
1, 0, 0, 0,
0, 0, 0, 1,
0, 0, 0, 1,
0, 0, 0, 0,
0, 0, 0, 0,
0, 0, 0, 0,
0, 0, 0, 0,
0, 0, 0, 0,
0, 0, 0, 0,
0, 0, 0, 0,
0, 0, 0, 0,
0, 0, 0, 0,
0, 0, 0, 0,
0, 0, 0, 0,
0, 0, 0, 0,
0, 0, 0, 0,
0, 0, 0, 0,
0, 0, 0, 0,
0, 0, 0, 0,
0, 0, 0, 0,
0, 0, 0, 0,
0, 0, 0, 0,
0, 0, 0, 0,
0, 1, 0, 0,
0, 0, 0, 0,
0, 0, 0, 0,
0, 0, 0, 0,
0, 0, 0, 0,
0, 0, 0, 0,
0, 0, 0, 0,
0, 0, 0, 0,
0, 0, 0, 0,
0, 0, 0, 0,
0, 0, 0, 0,
0, 0, 0, 0,
0, 0, 0, 0,
0, 0, 0, 0,
0, 0, 0, 0,
#ENDOFDATA   :