Folder: NeXLSpectrum/weave/K412 spectra

Note: README.md
# ![](NeXL_sm.png)Spectrum
## Microanalytical X-ray Spectrum Analysis
| **Documentation**                        | **Build Status**                  |
|:----------------------------------------:|:---------------------------------:|
| [![][docs-stable-img]][docs-stable-url]  | [![][travis-img]][travis-url]     |


[docs-stable-img]: https://img.shields.io/badge/docs-stable-blue.svg
[docs-stable-url]: https://pages.nist.gov/NeXLSpectrum.jl
[travis-img]: https://travis-ci.com/usnistgov/NeXLSpectrum.jl.svg?branch=master
[travis-url]: https://travis-ci.com/usnistgov/NeXLSpectrum.jl

`NeXLSpectrum` is a library of tools for manipulating EDS spectrum within the
NeXL framework. `NeXLSpectrum` depends on `NeXLUncertainties`, `NeXLCore` and
`NeXLMatrixCorrection` and loading `NeXLSpectrum` will also make these
libraries available.

Primarily, `NeXLSpectrum`
  * Implements the `Spectrum` type to represent individual EDS spectra
    * Reads `Spectrum` objects from disk files (or other streams) in EMSA, Bruker and ASPEX formats
    * Writes `Spectrum` objects to a disk file in EMSA format
  * Provides utilities and other low level tools to interogate and manipulate `Spectrum` objects
  * Implements the `HyperSpectrum` type to represent hyper-spectra (linescan, image, cube, ...)
    * The individual pixels in a hyper-spectrum are visible as `Spectrum` objects
    * Reads `HyperSpectrum` objects from LISPIX-style RPL/RAW files
    * Writes `HyperSpectrum` objects to RPL/RAW files

  * Provides data types to define detector properties
  * Extends `Gadfly.jl` to plot spectra and spectrum-related items
  * Provides algorithms to perform Schamber-style filter-fitting of spectra
    * Implements a basic weighted LLSQ fit algorithm
      * Fits characteristic, escape, Compton and other features
    * Implements a 'vector-based' quick-quant algorithm for processing hyper-spectra

File: CaF2 std.msa
#FORMAT      : EMSA/MAS Spectral Data File
#VERSION     : 1.0
#TITLE       : CaF2 std
#DATE        : 07-MAY-2019
#TIME        : 02:23
#OWNER       : Unknown
#NPOINTS     : 4096
#NCOLUMNS    : 1
#XUNITS      : eV
#YUNITS      : counts
#DATATYPE    : Y
#XPERCHAN    : 9.99856
#OFFSET      : 1.63032
#BEAMKV      : 20
#SIGNALTYPE  : EDS
#ELEVANGLE   : 35
#AZIMANGLE   : 0
#LIVETIME    : 1176.1
#REALTIME    : 1456.12
#PROBECUR    : 1.10989
#TDEADLYR    : 0
#TACTLYR     : 0.045
#TALWIND     : 0.003
#CHOFFSET    : 0.0
#XLABEL      : Energy (eV)
#YLABEL      : Counts
#EDSDET      : SDUTW
##SPECIMEN   : CaF2 std
##D2STDCMP   : CaF2,(F:48.6667),(Ca:51.3333),3.18
##DET_HASH   : 97086dfe-e5c2-9c77-3984-1d0b14bbbf41
##CALIB_HASH : 1a36e884-c26d-3547-51b1-d0bb2efdf95a
##WORKING    : 17.0 mm
##SAMPLE     : <BulkSample id="1">\n<mOrientation id="2">\n<double>0.0</double>\n<double>0.0</double>\n<double>-1.0</double>\n</mOrientation>\n</BulkSample>
##CONDCOATING: 10.000 nm of Pure Carbon,(C:100.0),1.9
#SPECTRUM    :
27,
51,
54001,
8462,
15381,
405840,
12356,
15534,
19808,
24666,
27354,
29066,
29498,
31676,
49857,
29550,
30752,
28273,
27173,
26460,
25587,
25090,
24638,
24121,
22369,
27969,
968081,
344012,
55353,
166840,
12535,
14074,
12013,
11490,
11208,
11113,
10699,
10236,
10353,
9938,
9598,
9306,
9136,
8803,
8411,
8436,
8337,
7663,
7455,
7454,
6989,
6826,
7330,
9209,
6301,
6658,
5875,
5631,
5416,
5236,
5112,
4904,
4769,
4484,
4502,
4371,
4150,
4053,
3903,
3764,
3602,
3568,
3468,
3359,
3086,
3319,
2945,
2826,
2794,
2677,
2481,
2529,
2386,
2286,
2233,
2108,
2088,
1914,
1899,
1832,
1776,
1629,
1495,
1548,
1446,
1362,
1302,
1167,
1232,
1180,
1066,
1019,
988,
918,
861,
820,
781,
770,
695,
670,
601,
609,
551,
515,
436,
495,
419,
367,
353,
334,
317,
297,
275,
232,
246,
197,
205,
175,
160,
132,
131,
106,
109,
100,
75,
65,
48,
43,
33,
30,
20,
16,
4,
2,
1,
1,
1,
1,
2,
1,
2,
0,
0,
1,
2,
0,
1,
1,
0,
1,
0,
2,
0,
0,
0,
0,
1,
0,
1,
0,
0,
0,
1,
0,
0,
0,
1,
0,
0,
0,
0,
1,
0,
0,
0,
0,
0,
0,
0,
0,
0,
0,
0,
0,
0,
0,
0,
0,
0,
0,
0,
0,
0,
0,
0,
0,
0,
0,
0,
0,
0,
0,
0,
0,
0,
0,
1,
0,
0,
0,
0,
0,
0,
0,
0,
0,
0,
0,
0,
0,
0,
0,
0,
0,
0,
0,
0,
0,
0,
0,
0,
0,
0,
0,
0,
0,
0,
0,
0,
0,
0,
0,
0,
0,
0,
0,
0,
0,
0,
0,
0,
0,
0,
0,
0,
0,
0,
0,
0,
0,
0,
0,
0,
0,
0,
0,
0,
0,
0,
0,
0,
0,
0,
0,
0,
0,
0,
0,
0,
0,
0,
0,
0,
0,
#ENDOFDATA   :

File: III-E K412[0][4].msa
#FORMAT      : EMSA/MAS Spectral Data File
#VERSION     : 1.0
#TITLE       : III-E K412[0][all]
#DATE        : 07-MAY-2019
#TIME        : 01:51
#OWNER       : Unknown
#NPOINTS     : 4096
#NCOLUMNS    : 1
#XUNITS      : eV
#YUNITS      : counts
#DATATYPE    : Y
#XPERCHAN    : 9.99856
#OFFSET      : 1.63032
#BEAMKV      : 20
#SIGNALTYPE  : EDS
#ELEVANGLE   : 35
#AZIMANGLE   : 0
#LIVETIME    : 235.484
#REALTIME    : 286.279
#PROBECUR    : 1.11355
#TDEADLYR    : 0
#TACTLYR     : 0.045
#TALWIND     : 0.003
#CHOFFSET    : 0.0
#XLABEL      : Energy (eV)
#YLABEL      : Counts
#XPOSITION   : -5.89156
#YPOSITION   : -12.39531
#ZPOSITION   : 31.37
#EDSDET      : SDUTW
##SPECIMEN   : III-E K412[0][all]
##D2STDCMP   : K412,(O:42.758),(Mg:11.6567),(Al:4.9061),(Si:21.1982),(Ca:10.899),(Fe:7.7742),3.5
##DET_HASH   : 97086dfe-e5c2-9c77-3984-1d0b14bbbf41
##CALIB_HASH : 1a36e884-c26d-3547-51b1-d0bb2efdf95a
##WORKING    : 17.0 mm
#SPECTRUM    :
4,
8,
6080,
3061,
38303,
8648,
2941,
4012,
5533,
122969,
7272,
20673,
56680,
30053,
4555,
3865,
4241,
3894,
3892,
3836,
3690,
3790,
3580,
3645,
3423,
3548,
39939,
15313,
4208,
8571,
2527,
2278,
2292,
2369,
2116,
2066,
2001,
1958,
1881,
1944,
1762,
1637,
1810,
1568,
1512,
5574,
15642,
1551,
1288,
1289,
2749,
2019,
1072,
1136,
1083,
1063,
988,
954,
891,
879,
835,
802,
818,
806,
789,
713,
705,
713,
690,
657,
598,
595,
556,
551,
507,
509,
525,
495,
456,
446,
408,
375,
423,
366,
334,
328,
329,
302,
285,
310,
294,
275,
252,
227,
205,
200,
210,
189,
197,
186,
186,
164,
176,
151,
124,
120,
125,
130,
107,
86,
89,
79,
96,
87,
69,
69,
62,
66,
51,
53,
63,
61,
41,
51,
37,
36,
27,
26,
26,
12,
23,
12,
16,
23,
8,
8,
8,
8,
6,
4,
5,
2,
2,
0,
0,
1,
0,
1,
0,
0,
0,
1,
0,
0,
0,
0,
0,
0,
0,
0,
0,
0,
0,
0,
0,
0,
0,
0,
0,
0,
0,
0,
0,
0,
0,
0,
0,
0,
0,
0,
0,
0,
0,
0,
0,
0,
0,
0,
0,
0,
0,
0,
0,
0,
0,
0,
0,
0,
0,
0,
0,
0,
0,
0,
0,
0,
0,
0,
0,
0,
0,
0,
0,
0,
0,
0,
0,
0,
0,
0,
0,
0,
0,
0,
0,
0,
0,
0,
0,
0,
0,
0,
0,
0,
0,
0,
0,
0,
0,
0,
0,
0,
0,
0,
0,
0,
0,
0,
0,
0,
0,
0,
0,
0,
0,
0,
0,
0,
0,
0,
0,
0,
0,
0,
0,
0,
0,
0,
0,
0,
0,
0,
0,
0,
0,
0,
0,
0,
0,
0,
0,
0,
0,
0,
0,
0,
0,
0,
0,
0,
0,
0,
0,
0,
#ENDOFDATA   :

File: III-E K412[1][4].msa
#FORMAT      : EMSA/MAS Spectral Data File
#VERSION     : 1.0
#TITLE       : III-E K412[1][all]
#DATE        : 07-MAY-2019
#TIME        : 01:53
#OWNER       : Unknown
#NPOINTS     : 4096
#NCOLUMNS    : 1
#XUNITS      : eV
#YUNITS      : counts
#DATATYPE    : Y
#XPERCHAN    : 9.99856
#OFFSET      : 1.63032
#BEAMKV      : 20
#SIGNALTYPE  : EDS
#ELEVANGLE   : 35
#AZIMANGLE   : 0
#LIVETIME    : 235.433
#REALTIME    : 286.218
#PROBECUR    : 1.11355
#TDEADLYR    : 0
#TACTLYR     : 0.045
#TALWIND     : 0.003
#CHOFFSET    : 0.0
#XLABEL      : Energy (eV)
#YLABEL      : Counts
#XPOSITION   : -5.83953
#YPOSITION   : -12.39875
#ZPOSITION   : 31.37
#EDSDET      : SDUTW
##SPECIMEN   : III-E K412[1][all]
##D2STDCMP   : K412,(O:42.758),(Mg:11.6567),(Al:4.9061),(Si:21.1982),(Ca:10.899),(Fe:7.7742),3.5
##DET_HASH   : 97086dfe-e5c2-9c77-3984-1d0b14bbbf41
##CALIB_HASH : 1a36e884-c26d-3547-51b1-d0bb2efdf95a
##WORKING    : 17.0 mm
#SPECTRUM    :
1,
7,
6096,
3063,
38193,
8603,
3009,
4070,
5685,
123291,
7265,
20659,
56438,
30592,
4667,
3803,
4223,
3955,
3936,
3766,
3673,
3698,
3682,
3519,
3309,
3593,
39284,
15417,
4330,
8394,
2514,
2328,
2291,
2293,
2193,
2041,
2018,
2018,
1849,
1916,
1761,
1697,
1709,
1667,
1553,
5525,
16115,
1469,
1262,
1346,
2811,
2083,
1100,
1067,
1073,
965,
960,
902,
958,
869,
873,
817,
782,
745,
737,
715,
702,
700,
642,
636,
591,
601,
579,
519,
520,
510,
449,
432,
442,
444,
404,
405,
392,
374,
340,
364,
331,
321,
325,
284,
291,
279,
235,
252,
218,
216,
204,
177,
176,
195,
201,
161,
175,
126,
129,
146,
121,
123,
94,
83,
103,
89,
75,
87,
78,
79,
52,
53,
57,
49,
49,
40,
49,
28,
37,
30,
33,
26,
28,
30,
19,
12,
18,
7,
13,
12,
2,
8,
6,
4,
5,
1,
2,
0,
0,
1,
0,
1,
0,
0,
0,
0,
0,
0,
0,
0,
0,
0,
0,
0,
0,
0,
0,
0,
1,
0,
0,
0,
0,
0,
0,
0,
0,
0,
0,
0,
0,
0,
0,
0,
0,
0,
0,
0,
0,
0,
0,
0,
0,
0,
0,
0,
0,
0,
0,
0,
0,
0,
0,
0,
0,
0,
0,
0,
0,
0,
0,
0,
0,
0,
0,
0,
0,
0,
0,
0,
0,
0,
0,
0,
0,
0,
0,
0,
0,
0,
0,
0,
0,
0,
0,
0,
0,
0,
0,
0,
0,
0,
0,
0,
0,
0,
0,
0,
0,
0,
0,
0,
0,
0,
0,
0,
0,
0,
0,
0,
0,
0,
0,
0,
0,
0,
0,
0,
0,
0,
0,
0,
0,
0,
0,
0,
0,
0,
0,
0,
0,
0,
0,
0,
0,
0,
0,
0,
0,
0,
0,
0,
0,
0,
0,
0,
0,
0,
#ENDOFDATA   :