Folder: NeXLSpectrum/weave/spectra

Note: README.md
# ![](NeXL_sm.png)Spectrum
## Microanalytical X-ray Spectrum Analysis
| **Documentation**                        | **Build Status**                  |
|:----------------------------------------:|:---------------------------------:|
| [![][docs-stable-img]][docs-stable-url]  | [![][travis-img]][travis-url]     |


[docs-stable-img]: https://img.shields.io/badge/docs-stable-blue.svg
[docs-stable-url]: https://pages.nist.gov/NeXLSpectrum.jl
[travis-img]: https://travis-ci.com/usnistgov/NeXLSpectrum.jl.svg?branch=master
[travis-url]: https://travis-ci.com/usnistgov/NeXLSpectrum.jl

`NeXLSpectrum` is a library of tools for manipulating EDS spectrum within the
NeXL framework. `NeXLSpectrum` depends on `NeXLUncertainties`, `NeXLCore` and
`NeXLMatrixCorrection` and loading `NeXLSpectrum` will also make these
libraries available.

Primarily, `NeXLSpectrum`
  * Implements the `Spectrum` type to represent individual EDS spectra
    * Reads `Spectrum` objects from disk files (or other streams) in EMSA, Bruker and ASPEX formats
    * Writes `Spectrum` objects to a disk file in EMSA format
  * Provides utilities and other low level tools to interogate and manipulate `Spectrum` objects
  * Implements the `HyperSpectrum` type to represent hyper-spectra (linescan, image, cube, ...)
    * The individual pixels in a hyper-spectrum are visible as `Spectrum` objects
    * Reads `HyperSpectrum` objects from LISPIX-style RPL/RAW files
    * Writes `HyperSpectrum` objects to RPL/RAW files

  * Provides data types to define detector properties
  * Extends `Gadfly.jl` to plot spectra and spectrum-related items
  * Provides algorithms to perform Schamber-style filter-fitting of spectra
    * Implements a basic weighted LLSQ fit algorithm
      * Fits characteristic, escape, Compton and other features
    * Implements a 'vector-based' quick-quant algorithm for processing hyper-spectra

File: Ag std.msa
#FORMAT      : EMSA/MAS Spectral Data File
#VERSION     : 1.0
#TITLE       : Ag std
#DATE        : 15-MAY-2018
#TIME        : 01:52
#OWNER       : Unknown
#NPOINTS     : 4096
#NCOLUMNS    : 1
#XUNITS      : eV
#YUNITS      : counts
#DATATYPE    : Y
#XPERCHAN    : 9.99856
#OFFSET      : 1.63032
#BEAMKV      : 25
#SIGNALTYPE  : EDS
#ELEVANGLE   : 35
#AZIMANGLE   : 0
#LIVETIME    : 1210.86
#REALTIME    : 1713.6
#PROBECUR    : 0.93864
#TDEADLYR    : 0
#TACTLYR     : 0.045
#TALWIND     : 0.003
#CHOFFSET    : 0.0
#XLABEL      : Energy (eV)
#YLABEL      : Counts
#EDSDET      : SDUTW
##SPECIMEN   : Ag std
##D2STDCMP   : Ag,(Ag:100.0),5.0
##DET_HASH   : 97086dfe-e5c2-9c77-3984-1d0b14bbbf41
##CALIB_HASH : 1a36e884-c26d-3547-51b1-d0bb2efdf95a
##WORKING    : 16.99 mm
##SAMPLE     : <BulkSample id="1">\n<mOrientation id="2">\n<double>0.0</double>\n<double>0.0</double>\n<double>-1.0</double>\n</mOrientation>\n</BulkSample>
#SPECTRUM    :
19,
216,
52386,
13506,
27241,
21755,
19962,
25014,
31477,
63496,
52563,
49085,
46988,
50181,
49612,
53120,
74078,
59653,
59792,
133939,
86629,
1117534,
467381,
509113,
235755,
77611,
29197,
39515,
25801,
24240,
25553,
25060,
25724,
25140,
25242,
25134,
25672,
25876,
25773,
26862,
25446,
24895,
25975,
27648,
26901,
26092,
28026,
23009,
22593,
21975,
22280,
21777,
20868,
21547,
20443,
19626,
19306,
19382,
18920,
18660,
18223,
17985,
17851,
17424,
16500,
16346,
16085,
15877,
15348,
15395,
14975,
16736,
15338,
13870,
13707,
13899,
13188,
12543,
12296,
11938,
11611,
11235,
11153,
10884,
11233,
11375,
10405,
9770,
9373,
9157,
9544,
8816,
8366,
8252,
7753,
7703,
7414,
7074,
6908,
6874,
6432,
6235,
6009,
5862,
5548,
5338,
5242,
5059,
4762,
4760,
4565,
4349,
4410,
4158,
3941,
3742,
3598,
3506,
3291,
3151,
3045,
2896,
2798,
2621,
2566,
2437,
2347,
2290,
2070,
1979,
2024,
1854,
1766,
1701,
1595,
1553,
1427,
1412,
1355,
1238,
1203,
1115,
1060,
1038,
974,
948,
871,
819,
738,
707,
672,
609,
596,
552,
536,
467,
416,
402,
397,
353,
305,
305,
285,
260,
221,
211,
181,
156,
133,
129,
126,
99,
82,
72,
50,
40,
35,
15,
11,
6,
4,
2,
0,
4,
2,
3,
3,
2,
1,
1,
4,
3,
1,
1,
3,
3,
3,
0,
1,
3,
2,
0,
1,
2,
0,
1,
1,
0,
1,
1,
1,
1,
0,
1,
1,
0,
0,
0,
1,
2,
0,
3,
0,
0,
0,
0,
0,
0,
0,
0,
0,
0,
0,
0,
1,
0,
0,
0,
0,
0,
0,
0,
0,
0,
0,
0,
1,
0,
0,
0,
0,
0,
0,
0,
0,
0,
0,
0,
0,
0,
0,
0,
0,
0,
0,
0,
0,
0,
0,
0,
0,
0,
0,
0,
0,
0,
0,
0,
0,
0,
0,
0,
0,
0,
0,
0,
0,
0,
0,
0,
0,
0,
0,
0,
#ENDOFDATA   :

File: Au std.msa
#FORMAT      : EMSA/MAS Spectral Data File
#VERSION     : 1.0
#TITLE       : Au std
#DATE        : 15-MAY-2018
#TIME        : 02:52
#OWNER       : Unknown
#NPOINTS     : 4096
#NCOLUMNS    : 1
#XUNITS      : eV
#YUNITS      : counts
#DATATYPE    : Y
#XPERCHAN    : 9.99856
#OFFSET      : 1.63032
#BEAMKV      : 25
#SIGNALTYPE  : EDS
#ELEVANGLE   : 35
#AZIMANGLE   : 0
#LIVETIME    : 1161.13
#REALTIME    : 1829.08
#PROBECUR    : 0.9413
#TDEADLYR    : 0
#TACTLYR     : 0.045
#TALWIND     : 0.003
#CHOFFSET    : 0.0
#XLABEL      : Energy (eV)
#YLABEL      : Counts
#EDSDET      : SDUTW
##SPECIMEN   : Au std
##D2STDCMP   : Au,(Au:100.0),9.0
##DET_HASH   : 97086dfe-e5c2-9c77-3984-1d0b14bbbf41
##CALIB_HASH : 1a36e884-c26d-3547-51b1-d0bb2efdf95a
##WORKING    : 16.99 mm
##SAMPLE     : <BulkSample id="1">\n<mOrientation id="2">\n<double>0.0</double>\n<double>0.0</double>\n<double>-1.0</double>\n</mOrientation>\n</BulkSample>
#SPECTRUM    :
23,
229,
30995,
38746,
22224,
30180,
36956,
45586,
54034,
62940,
69415,
80447,
168028,
81677,
107894,
1656110,
930380,
79064,
37292,
39895,
50446,
36208,
37101,
36277,
37772,
36932,
37864,
38972,
39264,
39912,
42333,
45282,
41542,
40744,
40452,
40545,
40496,
39666,
39744,
39983,
39156,
38424,
38286,
37291,
37178,
37346,
38738,
35582,
34846,
34588,
34443,
33050,
32652,
33041,
32087,
31327,
30616,
30642,
29595,
29303,
34829,
41834,
28244,
27533,
26684,
26614,
25794,
26229,
43898,
278314,
168945,
26999,
23042,
23562,
23755,
22127,
21521,
20064,
19782,
22449,
31311,
62055,
127371,
83802,
25736,
22481,
16570,
14416,
13688,
13391,
14216,
13049,
12740,
12625,
12492,
21594,
22791,
13022,
14855,
12047,
9888,
9423,
9412,
9025,
8292,
8069,
7794,
7545,
7445,
7074,
6819,
6918,
6639,
6504,
6060,
5926,
5593,
5464,
5280,
5027,
4749,
4766,
4518,
4325,
4082,
4056,
3958,
3740,
3578,
3490,
3285,
3145,
2995,
2866,
2856,
2539,
2496,
2446,
2365,
2258,
2159,
1891,
1928,
1786,
1735,
1660,
1529,
1447,
1418,
1362,
1232,
1217,
1179,
1093,
964,
905,
791,
768,
711,
678,
594,
586,
550,
547,
491,
457,
350,
339,
330,
295,
256,
211,
170,
159,
124,
95,
91,
61,
40,
19,
16,
13,
9,
11,
11,
12,
10,
6,
4,
9,
2,
6,
6,
9,
8,
5,
3,
1,
7,
4,
2,
2,
3,
6,
1,
1,
3,
2,
4,
2,
1,
3,
3,
1,
1,
1,
1,
0,
2,
1,
0,
1,
1,
2,
1,
1,
1,
2,
1,
1,
1,
0,
0,
1,
1,
0,
1,
2,
0,
1,
0,
1,
1,
0,
1,
0,
0,
0,
1,
0,
0,
0,
0,
0,
0,
0,
0,
0,
0,
0,
0,
0,
0,
1,
0,
0,
0,
0,
0,
0,
0,
0,
0,
0,
0,
0,
0,
0,
0,
0,
0,
0,
0,
0,
0,
0,
0,
0,
0,
0,
0,
0,
0,
0,
#ENDOFDATA   :

File: B std.msa
#FORMAT      : EMSA/MAS Spectral Data File
#VERSION     : 1.0
#TITLE       : B std
#DATE        : 15-MAY-2018
#TIME        : 09:02
#OWNER       : Unknown
#NPOINTS     : 4096
#NCOLUMNS    : 1
#XUNITS      : eV
#YUNITS      : counts
#DATATYPE    : Y
#XPERCHAN    : 9.99856
#OFFSET      : 1.63032
#BEAMKV      : 25
#SIGNALTYPE  : EDS
#ELEVANGLE   : 35
#AZIMANGLE   : 0
#LIVETIME    : 1196.59
#REALTIME    : 1233.63
#PROBECUR    : 0.95111
#TDEADLYR    : 0
#TACTLYR     : 0.045
#TALWIND     : 0.003
#CHOFFSET    : 0.0
#XLABEL      : Energy (eV)
#YLABEL      : Counts
#EDSDET      : SDUTW
##SPECIMEN   : B std
##D2STDCMP   : B,(B:100.0),5.0
##DET_HASH   : 97086dfe-e5c2-9c77-3984-1d0b14bbbf41
##CALIB_HASH : 1a36e884-c26d-3547-51b1-d0bb2efdf95a
##WORKING    : 16.99 mm
##SAMPLE     : <BulkSample id="1">\n<mOrientation id="2">\n<double>0.0</double>\n<double>0.0</double>\n<double>-1.0</double>\n</mOrientation>\n</BulkSample>
#SPECTRUM    :
26,
5054,
2477,
1436,
2951,
5902,
8592,
12455,
15376,
17701,
17742,
17879,
17039,
16263,
14037,
13557,
12814,
11925,
11221,
10538,
9889,
9380,
8909,
8209,
7670,
7370,
7378,
6682,
6195,
5968,
5771,
5325,
5048,
4791,
4714,
4475,
4234,
4023,
3846,
3899,
3541,
3362,
3454,
3110,
2928,
3195,
4105,
2732,
2631,
2588,
2481,
2319,
2286,
2185,
2133,
1971,
1934,
1893,
1810,
1830,
1682,
1633,
1529,
1485,
1535,
1438,
1340,
1371,
1292,
1308,
1250,
1147,
1149,
1106,
1035,
1082,
1056,
977,
908,
872,
827,
765,
775,
786,
689,
721,
717,
605,
598,
617,
628,
547,
557,
508,
468,
490,
475,
422,
389,
406,
390,
384,
310,
337,
326,
321,
284,
289,
254,
288,
256,
255,
213,
200,
200,
193,
167,
165,
154,
158,
156,
137,
138,
129,
96,
104,
116,
91,
85,
92,
75,
80,
73,
69,
65,
65,
51,
68,
58,
57,
46,
50,
44,
34,
36,
45,
33,
34,
35,
27,
19,
14,
12,
14,
15,
12,
19,
16,
7,
9,
14,
11,
7,
7,
7,
2,
7,
5,
5,
1,
3,
2,
1,
2,
0,
1,
1,
0,
0,
0,
0,
0,
0,
0,
0,
0,
0,
0,
0,
0,
0,
0,
0,
0,
0,
0,
0,
0,
0,
0,
0,
0,
0,
0,
0,
0,
0,
0,
0,
0,
0,
0,
0,
0,
0,
0,
0,
0,
0,
0,
0,
0,
0,
0,
0,
0,
0,
0,
0,
0,
0,
0,
0,
0,
0,
0,
0,
0,
0,
0,
0,
0,
0,
0,
0,
0,
0,
0,
0,
0,
0,
0,
0,
0,
0,
0,
0,
0,
0,
0,
0,
0,
0,
0,
0,
0,
0,
0,
0,
0,
0,
0,
0,
0,
0,
0,
0,
0,
0,
0,
0,
0,
0,
0,
0,
0,
0,
0,
0,
0,
0,
0,
0,
0,
#ENDOFDATA   :

File: Bi std.msa
#FORMAT      : EMSA/MAS Spectral Data File
#VERSION     : 1.0
#TITLE       : Bi std
#DATE        : 16-MAY-2018
#TIME        : 03:11
#OWNER       : Unknown
#NPOINTS     : 4096
#NCOLUMNS    : 1
#XUNITS      : eV
#YUNITS      : counts
#DATATYPE    : Y
#XPERCHAN    : 9.99856
#OFFSET      : 1.63032
#BEAMKV      : 25
#SIGNALTYPE  : EDS
#ELEVANGLE   : 35
#AZIMANGLE   : 0
#LIVETIME    : 1133.18
#REALTIME    : 1760.53
#PROBECUR    : 0.90981
#TDEADLYR    : 0
#TACTLYR     : 0.045
#TALWIND     : 0.003
#CHOFFSET    : 0.0
#XLABEL      : Energy (eV)
#YLABEL      : Counts
#EDSDET      : SDUTW
##SPECIMEN   : Bi std
##D2STDCMP   : Bi,(Bi:100.0),5.0
##DET_HASH   : 97086dfe-e5c2-9c77-3984-1d0b14bbbf41
##CALIB_HASH : 1a36e884-c26d-3547-51b1-d0bb2efdf95a
##WORKING    : 17.0 mm
##SAMPLE     : <BulkSample id="1">\n<mOrientation id="2">\n<double>0.0</double>\n<double>0.0</double>\n<double>-1.0</double>\n</mOrientation>\n</BulkSample>
#SPECTRUM    :
34,
378,
36174,
17953,
32405,
72111,
36936,
40520,
45698,
53343,
59749,
65275,
66137,
89585,
95406,
74370,
103919,
976131,
1273484,
77347,
60059,
37668,
41458,
53688,
38011,
36974,
38393,
36946,
38556,
36838,
37944,
37863,
44087,
38607,
38564,
43093,
40557,
38292,
37959,
37058,
36827,
36975,
36212,
35413,
35496,
34950,
34281,
33895,
33683,
33076,
32433,
31616,
31667,
31847,
31120,
30389,
29591,
29219,
28402,
28161,
27364,
26938,
26493,
25906,
25594,
25164,
25850,
34762,
28500,
23781,
23051,
22533,
21962,
21800,
21615,
23427,
39069,
181170,
123854,
22370,
18665,
17747,
17493,
17642,
17924,
16106,
15629,
14895,
15521,
17568,
18829,
18847,
43957,
94527,
30522,
18014,
15250,
10743,
10298,
9822,
9608,
9350,
9089,
8707,
8429,
8597,
8237,
7921,
10489,
14632,
8706,
8187,
8920,
7103,
5922,
5782,
5877,
5482,
5121,
4866,
4823,
4565,
4462,
4226,
4087,
3920,
3787,
3615,
3424,
3458,
3100,
2987,
2965,
2775,
2682,
2585,
2520,
2231,
2257,
2091,
1978,
1968,
1802,
1753,
1662,
1610,
1457,
1418,
1318,
1261,
1250,
1187,
1119,
989,
902,
896,
808,
758,
711,
665,
617,
576,
479,
504,
442,
399,
387,
326,
286,
272,
263,
215,
188,
156,
139,
111,
90,
56,
32,
17,
8,
14,
11,
13,
9,
19,
10,
7,
7,
4,
9,
6,
6,
3,
4,
5,
5,
3,
9,
2,
1,
4,
3,
4,
3,
4,
7,
4,
9,
3,
3,
2,
1,
2,
1,
2,
1,
2,
3,
1,
1,
1,
1,
0,
0,
1,
1,
0,
0,
1,
0,
1,
0,
0,
1,
0,
0,
1,
2,
2,
0,
2,
0,
0,
1,
1,
0,
0,
0,
0,
0,
1,
0,
0,
0,
0,
0,
1,
0,
0,
0,
0,
0,
0,
0,
0,
0,
0,
0,
0,
0,
0,
0,
0,
0,
0,
0,
0,
0,
0,
0,
0,
0,
0,
0,
0,
0,
0,
0,
0,
0,
0,
0,
0,
#ENDOFDATA   :

File: BN std.msa
#FORMAT      : EMSA/MAS Spectral Data File
#VERSION     : 1.0
#TITLE       : BN std
#DATE        : 15-MAY-2018
#TIME        : 09:14
#OWNER       : Unknown
#NPOINTS     : 4096
#NCOLUMNS    : 1
#XUNITS      : eV
#YUNITS      : counts
#DATATYPE    : Y
#XPERCHAN    : 9.99856
#OFFSET      : 1.63032
#BEAMKV      : 25
#SIGNALTYPE  : EDS
#ELEVANGLE   : 35
#AZIMANGLE   : 0
#LIVETIME    : 1194.99
#REALTIME    : 1241.73
#PROBECUR    : 0.95197
#TDEADLYR    : 0
#TACTLYR     : 0.045
#TALWIND     : 0.003
#CHOFFSET    : 0.0
#XLABEL      : Energy (eV)
#YLABEL      : Counts
#EDSDET      : SDUTW
##SPECIMEN   : BN std
##D2STDCMP   : BN,(B:43.5617),(N:56.4384),5.0
##DET_HASH   : 97086dfe-e5c2-9c77-3984-1d0b14bbbf41
##CALIB_HASH : 1a36e884-c26d-3547-51b1-d0bb2efdf95a
##WORKING    : 16.99 mm
##SAMPLE     : <BulkSample id="1">\n<mOrientation id="2">\n<double>0.0</double>\n<double>0.0</double>\n<double>-1.0</double>\n</mOrientation>\n</BulkSample>
#SPECTRUM    :
19,
732,
12633,
64722,
4055,
4020,
5858,
8327,
11178,
13501,
15081,
15880,
16114,
16179,
14910,
14859,
14285,
13704,
13075,
12192,
11697,
11095,
10433,
9874,
9310,
9053,
8806,
8155,
7811,
7528,
7138,
6575,
6198,
6069,
5817,
5479,
5225,
5065,
4813,
4927,
4470,
4386,
4198,
3998,
3778,
3781,
3931,
3283,
3364,
3176,
3084,
2926,
2727,
2769,
2670,
2557,
2540,
2338,
2424,
2262,
2201,
2001,
1945,
2025,
1897,
1867,
1796,
1667,
1692,
1696,
1532,
1464,
1419,
1365,
1373,
1403,
1391,
1238,
1204,
1133,
1106,
1030,
1043,
989,
869,
926,
856,
855,
799,
795,
838,
716,
752,
642,
650,
574,
591,
525,
556,
502,
499,
486,
455,
459,
427,
420,
387,
360,
359,
289,
325,
320,
311,
309,
271,
235,
233,
207,
238,
218,
184,
173,
207,
154,
148,
145,
144,
140,
140,
126,
106,
118,
82,
97,
93,
85,
86,
72,
57,
50,
70,
56,
53,
41,
48,
45,
35,
41,
41,
40,
29,
32,
19,
26,
17,
14,
20,
16,
20,
15,
8,
10,
10,
7,
8,
3,
5,
10,
3,
8,
1,
3,
1,
3,
1,
0,
0,
0,
0,
0,
0,
0,
0,
0,
0,
0,
0,
0,
0,
0,
0,
0,
0,
0,
0,
0,
0,
0,
0,
0,
0,
0,
0,
0,
0,
0,
0,
0,
0,
0,
0,
0,
0,
0,
0,
0,
0,
0,
0,
0,
0,
0,
0,
0,
0,
0,
0,
0,
0,
0,
0,
0,
0,
0,
0,
0,
0,
0,
0,
0,
0,
0,
0,
0,
0,
0,
0,
0,
0,
0,
0,
0,
0,
0,
0,
0,
0,
0,
0,
0,
0,
0,
0,
0,
0,
0,
0,
0,
0,
0,
0,
0,
0,
0,
0,
0,
0,
0,
0,
0,
0,
0,
0,
0,
0,
0,
0,
0,
0,
0,
0,
0,
0,
0,
#ENDOFDATA   :

File: C std.msa
#FORMAT      : EMSA/MAS Spectral Data File
#VERSION     : 1.0
#TITLE       : C std
#DATE        : 15-MAY-2018
#TIME        : 09:08
#OWNER       : Unknown
#NPOINTS     : 4096
#NCOLUMNS    : 1
#XUNITS      : eV
#YUNITS      : counts
#DATATYPE    : Y
#XPERCHAN    : 9.99856
#OFFSET      : 1.63032
#BEAMKV      : 25
#SIGNALTYPE  : EDS
#ELEVANGLE   : 35
#AZIMANGLE   : 0
#LIVETIME    : 1199.39
#REALTIME    : 1300
#PROBECUR    : 0.95221
#TDEADLYR    : 0
#TACTLYR     : 0.045
#TALWIND     : 0.003
#CHOFFSET    : 0.0
#XLABEL      : Energy (eV)
#YLABEL      : Counts
#EDSDET      : SDUTW
##SPECIMEN   : C std
##D2STDCMP   : C,(C:100.0),1.9
##DET_HASH   : 97086dfe-e5c2-9c77-3984-1d0b14bbbf41
##CALIB_HASH : 1a36e884-c26d-3547-51b1-d0bb2efdf95a
##WORKING    : 16.99 mm
##SAMPLE     : <BulkSample id="1">\n<mOrientation id="2">\n<double>0.0</double>\n<double>0.0</double>\n<double>-1.0</double>\n</mOrientation>\n</BulkSample>
#SPECTRUM    :
18,
196,
1257984,
6293,
8048,
4787,
6640,
9553,
12555,
14891,
16460,
17301,
20695,
17360,
15595,
15119,
14533,
14027,
13497,
12330,
11790,
11247,
10765,
10071,
9468,
9153,
8452,
8054,
7781,
7412,
6985,
6639,
6281,
6103,
5839,
5495,
5282,
5088,
5043,
4813,
4430,
4270,
4235,
4062,
3822,
3855,
4242,
3434,
3292,
3278,
3069,
2971,
2771,
2840,
2696,
2585,
2411,
2516,
2331,
2188,
2177,
2053,
2038,
1939,
1888,
1783,
1840,
1789,
1686,
1665,
1598,
1435,
1475,
1402,
1390,
1407,
1330,
1190,
1232,
1153,
1113,
1072,
1044,
997,
970,
918,
906,
820,
790,
800,
863,
753,
725,
682,
681,
800,
765,
557,
536,
501,
489,
477,
445,
493,
415,
405,
419,
425,
358,
369,
311,
331,
321,
303,
292,
265,
254,
256,
219,
212,
193,
164,
186,
180,
181,
143,
157,
135,
125,
121,
128,
99,
100,
96,
89,
80,
70,
63,
80,
72,
69,
60,
58,
52,
62,
43,
45,
41,
27,
39,
38,
29,
30,
21,
20,
30,
25,
27,
19,
19,
14,
18,
11,
11,
4,
13,
9,
7,
3,
7,
5,
4,
6,
2,
0,
1,
4,
0,
0,
0,
0,
1,
0,
0,
0,
0,
1,
0,
0,
0,
0,
0,
0,
0,
0,
0,
0,
0,
0,
0,
0,
0,
0,
0,
0,
0,
0,
0,
0,
0,
0,
0,
0,
0,
0,
0,
0,
0,
0,
0,
0,
0,
0,
0,
0,
0,
0,
0,
0,
0,
0,
0,
0,
0,
0,
0,
0,
0,
0,
0,
0,
0,
0,
0,
0,
0,
0,
0,
0,
0,
0,
0,
0,
0,
0,
0,
0,
0,
0,
0,
0,
0,
0,
0,
0,
0,
0,
0,
0,
0,
0,
0,
0,
0,
0,
0,
0,
0,
0,
0,
0,
0,
0,
0,
0,
0,
0,
0,
0,
0,
0,
0,
0,
0,
#ENDOFDATA   :