Folder: NeXLSpectrum/weave/XRF Stainless

Note: README.md
# ![](NeXL_sm.png)Spectrum
## Microanalytical X-ray Spectrum Analysis
| **Documentation**                        | **Build Status**                  |
|:----------------------------------------:|:---------------------------------:|
| [![][docs-stable-img]][docs-stable-url]  | [![][travis-img]][travis-url]     |


[docs-stable-img]: https://img.shields.io/badge/docs-stable-blue.svg
[docs-stable-url]: https://pages.nist.gov/NeXLSpectrum.jl
[travis-img]: https://travis-ci.com/usnistgov/NeXLSpectrum.jl.svg?branch=master
[travis-url]: https://travis-ci.com/usnistgov/NeXLSpectrum.jl

`NeXLSpectrum` is a library of tools for manipulating EDS spectrum within the
NeXL framework. `NeXLSpectrum` depends on `NeXLUncertainties`, `NeXLCore` and
`NeXLMatrixCorrection` and loading `NeXLSpectrum` will also make these
libraries available.

Primarily, `NeXLSpectrum`
  * Implements the `Spectrum` type to represent individual EDS spectra
    * Reads `Spectrum` objects from disk files (or other streams) in EMSA, Bruker and ASPEX formats
    * Writes `Spectrum` objects to a disk file in EMSA format
  * Provides utilities and other low level tools to interogate and manipulate `Spectrum` objects
  * Implements the `HyperSpectrum` type to represent hyper-spectra (linescan, image, cube, ...)
    * The individual pixels in a hyper-spectrum are visible as `Spectrum` objects
    * Reads `HyperSpectrum` objects from LISPIX-style RPL/RAW files
    * Writes `HyperSpectrum` objects to RPL/RAW files

  * Provides data types to define detector properties
  * Extends `Gadfly.jl` to plot spectra and spectrum-related items
  * Provides algorithms to perform Schamber-style filter-fitting of spectra
    * Implements a basic weighted LLSQ fit algorithm
      * Fits characteristic, escape, Compton and other features
    * Implements a 'vector-based' quick-quant algorithm for processing hyper-spectra

File: Cr_50kv_50_ma_Rh_vac_D1.msa
#FORMAT      : EMSA/MAS SPECTRAL DATA FILE
#VERSION     : 1.0
#TITLE       : Bruker AXS spectrum Cr_50kv_50_ma_Rh_vac_D1.txt
#DATE        : 19-NOV-2019
#TIME        : 11:42
#OWNER       : Bruker AXS
#NPOINTS     : 4096.0
#NCOLUMNS    : 4.0
#XUNITS      : keV
#YUNITS      : Counts
#DATATYPE    : Y
#XPERCHAN    : 0.0099990
#OFFSET      : -0.9553045
#SIGNALTYPE  : EDS
#CHOFFSET    : 96
#LIVETIME  -s: 119.994
#REALTIME  -s: 131.733
##RTDET      : XFlash 430
#EDSDET      :
#TDEADLYR -cm: 0.000003
#TACTLYR  -cm: 0.045
##FANO       : 0.1135598
##MNFWHM -keV: 0.1438759
##IDENT      : Rh
#SPECTRUM    :
         0.0,         0.0,         0.0,         0.0,
         0.0,         0.0,         0.0,         0.0,
         0.0,         0.0,         0.0,         0.0,
         6.0,         5.0,         8.0,         5.0,
    147353.0,    133722.0,    110005.0,     82512.0,
         0.0,         1.0,         0.0,         1.0,
        19.0,        33.0,        18.0,        29.0,
        19.0,        25.0,        24.0,        21.0,
        13.0,        18.0,        25.0,        17.0,
        20.0,        19.0,        20.0,        21.0,
        27.0,        27.0,        30.0,        37.0,
        46.0,        46.0,        49.0,        57.0,
        43.0,        45.0,        53.0,        49.0,
        45.0,        42.0,        44.0,        54.0,
        63.0,        62.0,        52.0,        53.0,
        75.0,        81.0,        88.0,        91.0,
        74.0,        69.0,        87.0,        74.0,
        57.0,        69.0,        55.0,        59.0,
       765.0,       783.0,       785.0,       816.0,
       206.0,       223.0,       190.0,       169.0,
        88.0,        84.0,        82.0,        93.0,
       107.0,       111.0,       113.0,       112.0,
       135.0,       138.0,       135.0,       145.0,
       192.0,       197.0,       212.0,       198.0,
       172.0,       170.0,       184.0,       167.0,
       312.0,       308.0,       328.0,       348.0,
     30022.0,     41919.0,     57285.0,     76671.0,
     52317.0,     37874.0,     26539.0,     18276.0,
      2460.0,      2901.0,      3449.0,      4295.0,
     26733.0,     22649.0,     18615.0,     15045.0,
        25.0,        21.0,        20.0,        30.0,
        31.0,        31.0,        35.0,        44.0,
        95.0,       113.0,       129.0,       127.0,
       115.0,       102.0,        97.0,       106.0,
        36.0,        29.0,        29.0,        32.0,
        33.0,        32.0,        36.0,        34.0,
        26.0,        31.0,        30.0,        31.0,
        19.0,        14.0,        18.0,        18.0,
        18.0,        22.0,        24.0,        20.0,
        17.0,        22.0,        27.0,        30.0,
        72.0,        86.0,        86.0,        90.0,
       188.0,       180.0,       181.0,       167.0,
       126.0,       128.0,       122.0,       109.0,
        48.0,        58.0,        50.0,        48.0,
        36.0,        37.0,        38.0,        37.0,
        48.0,        45.0,        43.0,        46.0,
        66.0,        66.0,        75.0,        74.0,
        73.0,        73.0,        62.0,        69.0,
        48.0,        48.0,        49.0,        53.0,
        40.0,        36.0,        37.0,        40.0,
        38.0,        45.0,        54.0,        45.0,
        54.0,        55.0,        57.0,        57.0,
        65.0,        67.0,        71.0,        73.0,
        89.0,        84.0,        82.0,        87.0,
        87.0,        86.0,        83.0,        84.0,
        77.0,        78.0,        72.0,        66.0,
        53.0,        49.0,        41.0,        45.0,
        41.0,        36.0,        44.0,        45.0,
        38.0,        41.0,        38.0,        38.0,
        51.0,        44.0,        39.0,        47.0,
        41.0,        40.0,        37.0,        41.0,
        34.0,        39.0,        38.0,        31.0,
        31.0,        30.0,        33.0,        25.0,
        37.0,        35.0,        32.0,        37.0,
        28.0,        30.0,        38.0,        36.0,
        38.0,        38.0,        37.0,        35.0,
        34.0,        35.0,        36.0,        29.0,
        30.0,        25.0,        33.0,        27.0,
        28.0,        32.0,        30.0,        28.0,
        27.0,        29.0,        38.0,        39.0,
        30.0,        28.0,        30.0,        40.0,
        51.0,        47.0,        46.0,        40.0,
        29.0,        31.0,        37.0,        35.0,
        27.0,        28.0,        33.0,        33.0,
        30.0,        17.0,        23.0,        12.0,
        27.0,        31.0,        18.0,        24.0,
        19.0,        20.0,        28.0,        18.0,
        12.0,        22.0,        23.0,        22.0,
        26.0,        19.0,        27.0,        15.0,
        25.0,        21.0,        24.0,        21.0,
        27.0,        23.0,        25.0,        37.0,
        41.0,        30.0,        41.0,        42.0,
        49.0,        53.0,        61.0,        68.0,
        78.0,        61.0,        90.0,        69.0,
        43.0,        55.0,        57.0,        42.0,
        39.0,        31.0,        35.0,        33.0,
        18.0,        18.0,        26.0,        25.0,
        39.0,        45.0,        30.0,        51.0,
       112.0,       113.0,       130.0,       139.0,
        24.0,        19.0,        26.0,        11.0,
        12.0,        10.0,        11.0,         9.0,
         6.0,        10.0,        14.0,         3.0,
        13.0,        16.0,        14.0,        10.0,
        19.0,        19.0,        14.0,        13.0,
        12.0,        16.0,         8.0,        11.0,
        14.0,         9.0,        11.0,        11.0,
         8.0,         5.0,         7.0,         8.0,
         7.0,         9.0,         6.0,         7.0,
        16.0,        16.0,        23.0,        14.0,
        19.0,        17.0,        12.0,         8.0,
         4.0,         3.0,         9.0,         7.0,
         5.0,         5.0,         5.0,         1.0,
         2.0,         3.0,         2.0,         3.0,
         2.0,         3.0,         2.0,         2.0,
         4.0,         1.0,         1.0,         4.0,
         2.0,         4.0,         4.0,         2.0,
         3.0,         1.0,         0.0,         2.0,
         3.0,         1.0,         0.0,         2.0,
         2.0,         2.0,         3.0,         2.0,
         2.0,         2.0,         2.0,         5.0,
         1.0,         1.0,         0.0,         3.0,
         0.0,         0.0,         0.0,         0.0,
         3.0,         1.0,         1.0,         1.0,
         1.0,         0.0,         2.0,         1.0,
         4.0,         2.0,         0.0,         0.0,
         2.0,         1.0,         2.0,         0.0,
         1.0,         0.0,         0.0,         1.0,
         2.0,         2.0,         3.0,         2.0,
         1.0,         1.0,         0.0,         0.0,
         2.0,         1.0,         1.0,         0.0,
         1.0,         2.0,         1.0,         0.0,
         3.0,         5.0,         2.0,         1.0,
         1.0,         1.0,         0.0,         0.0,
         0.0,         0.0,         1.0,         2.0,
         0.0,         0.0,         0.0,         1.0,
         0.0,         1.0,         1.0,         1.0,
         1.0,         0.0,         0.0,         0.0,
         1.0,         0.0,         0.0,         1.0,
         2.0,         0.0,         1.0,         0.0,
         1.0,         0.0,         0.0,         0.0,
         0.0,         0.0,         1.0,         1.0,
         0.0,         0.0,         1.0,         0.0,
         1.0,         1.0,         0.0,         0.0,
         0.0,         1.0,         0.0,         0.0,
         0.0,         0.0,         1.0,         0.0,
         2.0,         1.0,         0.0,         1.0,
         1.0,         0.0,         0.0,         1.0,
         1.0,         1.0,         0.0,         0.0,
         1.0,         2.0,         0.0,         0.0,
         0.0,         0.0,         2.0,         0.0,
         0.0,         0.0,         0.0,         1.0,
         0.0,         1.0,         1.0,         0.0,
         0.0,         0.0,         1.0,         1.0,
         0.0,         0.0,         0.0,         0.0,
         0.0,         0.0,         0.0,         0.0,
         0.0,         0.0,         0.0,         0.0,
         0.0,         0.0,         0.0,         0.0,
         0.0,         0.0,         0.0,         0.0,
         0.0,         0.0,         1.0,         0.0,
         0.0,         0.0,         0.0,         0.0,
         1.0,         0.0,         0.0,         0.0,
         0.0,         0.0,         0.0,         1.0,
         0.0,         0.0,         0.0,         0.0,
         0.0,         0.0,         0.0,         1.0,
         0.0,         0.0,         0.0,         0.0,
         0.0,         0.0,         0.0,         0.0,
         0.0,         0.0,         0.0,         0.0,
         0.0,         0.0,         0.0,         0.0,
         0.0,         0.0,         0.0,         0.0,
         0.0,         0.0,         0.0,         0.0,
         0.0,         0.0,         0.0,         0.0,
         0.0,         0.0,         0.0,         0.0,
         0.0,         0.0,         0.0,         0.0,
         0.0,         0.0,         0.0,         0.0,
         0.0,         0.0,         0.0,         0.0,
         0.0,         0.0,         0.0,         0.0,
         0.0,         0.0,         0.0,         1.0,
         0.0,         0.0,         0.0,         0.0,
         0.0,         0.0,         0.0,         0.0,
         1.0,         0.0,         0.0,         0.0,
         0.0,         1.0,         0.0,         0.0,
         0.0,         0.0,         0.0,         0.0,
#ENDOFDATA   :

File: Cu_50kv_50_ma_Rh_vac_D1.msa
#FORMAT      : EMSA/MAS SPECTRAL DATA FILE
#VERSION     : 1.0
#TITLE       : Bruker AXS spectrum Cu_50kv_50_ma_Rh_vac_D1.txt
#DATE        : 19-NOV-2019
#TIME        : 11:33
#OWNER       : Bruker AXS
#NPOINTS     : 4096.0
#NCOLUMNS    : 4.0
#XUNITS      : keV
#YUNITS      : Counts
#DATATYPE    : Y
#XPERCHAN    : 0.0099990
#OFFSET      : -0.9553045
#SIGNALTYPE  : EDS
#CHOFFSET    : 96
#LIVETIME  -s: 120.023
#REALTIME  -s: 138.147
##RTDET      : XFlash 430
#EDSDET      :
#TDEADLYR -cm: 0.000003
#TACTLYR  -cm: 0.045
##FANO       : 0.1135598
##MNFWHM -keV: 0.1439929
##IDENT      :
#SPECTRUM    :
         0.0,         0.0,         0.0,         0.0,
         0.0,         0.0,         0.0,         0.0,
         0.0,         0.0,         0.0,         0.0,
        12.0,        13.0,        18.0,        18.0,
    146993.0,    133971.0,    110672.0,     83219.0,
         0.0,         1.0,         0.0,         0.0,
        32.0,        35.0,        32.0,        25.0,
        14.0,         9.0,        14.0,         7.0,
       205.0,       172.0,       155.0,       138.0,
        12.0,        15.0,        17.0,        16.0,
        20.0,        23.0,        21.0,        31.0,
        14.0,        25.0,        27.0,        31.0,
        35.0,        37.0,        38.0,        36.0,
        38.0,        37.0,        37.0,        40.0,
        62.0,        57.0,        66.0,        64.0,
        76.0,        96.0,        94.0,       119.0,
       109.0,        96.0,        79.0,        79.0,
        43.0,        47.0,        41.0,        34.0,
       120.0,       117.0,       127.0,       119.0,
        52.0,        59.0,        63.0,        61.0,
       161.0,       159.0,       166.0,       151.0,
        43.0,        43.0,        46.0,        38.0,
        33.0,        33.0,        38.0,        43.0,
        35.0,        35.0,        35.0,        34.0,
        40.0,        31.0,        36.0,        42.0,
        59.0,        56.0,        48.0,        53.0,
       128.0,       128.0,       127.0,       144.0,
       156.0,       154.0,       162.0,       152.0,
       115.0,       106.0,        82.0,        98.0,
       101.0,       105.0,        99.0,       109.0,
       303.0,       303.0,       304.0,       313.0,
       404.0,       423.0,       423.0,       390.0,
       350.0,       352.0,       317.0,       304.0,
       265.0,       252.0,       269.0,       262.0,
       168.0,       174.0,       188.0,       185.0,
       491.0,       547.0,       551.0,       566.0,
       965.0,      1033.0,      1053.0,      1086.0,
     87392.0,    109362.0,    135016.0,    163075.0,
     73903.0,     56488.0,     42355.0,     31625.0,
       850.0,       836.0,       840.0,       845.0,
      1508.0,      1558.0,      1683.0,      1877.0,
     48113.0,     49125.0,     49441.0,     49172.0,
       581.0,       395.0,       277.0,       225.0,
        63.0,        69.0,        70.0,        71.0,
        64.0,        56.0,        57.0,        58.0,
        51.0,        48.0,        53.0,        49.0,
        43.0,        40.0,        50.0,        49.0,
        38.0,        38.0,        42.0,        40.0,
        36.0,        34.0,        23.0,        31.0,
        36.0,        35.0,        40.0,        38.0,
        57.0,        63.0,        66.0,        62.0,
        90.0,       100.0,        86.0,        78.0,
        82.0,        73.0,        83.0,        82.0,
        61.0,        60.0,        58.0,        57.0,
        45.0,        46.0,        42.0,        39.0,
        43.0,        36.0,        37.0,        33.0,
        39.0,        42.0,        46.0,        45.0,
        44.0,        46.0,        41.0,        38.0,
        34.0,        34.0,        36.0,        37.0,
        33.0,        32.0,        36.0,        35.0,
        42.0,        49.0,        39.0,        38.0,
        31.0,        36.0,        49.0,        49.0,
        46.0,        49.0,        50.0,        47.0,
        44.0,        38.0,        44.0,        46.0,
        25.0,        29.0,        34.0,        33.0,
        34.0,        34.0,        26.0,        24.0,
        23.0,        24.0,        26.0,        27.0,
        21.0,        23.0,        23.0,        20.0,
        25.0,        23.0,        24.0,        22.0,
        21.0,        21.0,        20.0,        15.0,
        14.0,        16.0,        10.0,        11.0,
         9.0,         8.0,         8.0,         7.0,
         8.0,        10.0,         8.0,        12.0,
        21.0,        25.0,        13.0,        18.0,
        10.0,         9.0,         8.0,         8.0,
        22.0,        26.0,        18.0,        10.0,
        21.0,        14.0,        25.0,        19.0,
        17.0,        17.0,        25.0,        21.0,
        11.0,        12.0,        14.0,        15.0,
        14.0,        11.0,        20.0,        20.0,
        21.0,        22.0,        14.0,        16.0,
        24.0,        23.0,        19.0,        23.0,
        21.0,        32.0,        26.0,        31.0,
        26.0,        31.0,        28.0,        36.0,
        22.0,        21.0,        29.0,        25.0,
        21.0,        18.0,        18.0,        17.0,
         7.0,        13.0,        11.0,        12.0,
        33.0,        36.0,        39.0,        43.0,
       143.0,       140.0,       155.0,       138.0,
        21.0,        28.0,        22.0,        14.0,
         6.0,         9.0,        13.0,         9.0,
         8.0,        11.0,        14.0,        11.0,
        10.0,         9.0,        10.0,         9.0,
        10.0,         8.0,         9.0,        10.0,
         5.0,         7.0,         7.0,        11.0,
         2.0,         9.0,         4.0,         7.0,
         4.0,         2.0,         1.0,         3.0,
         4.0,         6.0,         5.0,         3.0,
         7.0,         7.0,        12.0,        12.0,
        16.0,        16.0,         9.0,        10.0,
         2.0,         3.0,         2.0,         5.0,
         4.0,         5.0,         3.0,         2.0,
         1.0,         5.0,         2.0,         1.0,
         2.0,         2.0,         1.0,         0.0,
         0.0,         0.0,         0.0,         0.0,
         3.0,         3.0,         4.0,         3.0,
         2.0,         2.0,         2.0,         3.0,
         0.0,         0.0,         0.0,         0.0,
         0.0,         0.0,         1.0,         0.0,
         1.0,         2.0,         1.0,         0.0,
         5.0,         1.0,         0.0,         2.0,
         0.0,         1.0,         1.0,         2.0,
         1.0,         1.0,         2.0,         0.0,
         1.0,         1.0,         0.0,         0.0,
         1.0,         0.0,         0.0,         0.0,
         1.0,         1.0,         1.0,         1.0,
         0.0,         0.0,         0.0,         1.0,
         0.0,         1.0,         2.0,         2.0,
         0.0,         1.0,         1.0,         0.0,
         0.0,         1.0,         1.0,         1.0,
         0.0,         1.0,         1.0,         0.0,
         1.0,         0.0,         0.0,         1.0,
         1.0,         2.0,         1.0,         2.0,
         1.0,         1.0,         0.0,         0.0,
         1.0,         0.0,         0.0,         0.0,
         0.0,         0.0,         0.0,         0.0,
         0.0,         1.0,         1.0,         1.0,
         1.0,         1.0,         1.0,         0.0,
         1.0,         0.0,         1.0,         0.0,
         2.0,         1.0,         0.0,         0.0,
         0.0,         0.0,         0.0,         0.0,
         0.0,         0.0,         0.0,         0.0,
         0.0,         0.0,         1.0,         0.0,
         0.0,         1.0,         0.0,         0.0,
         0.0,         0.0,         0.0,         0.0,
         0.0,         0.0,         0.0,         0.0,
         0.0,         0.0,         0.0,         1.0,
         0.0,         1.0,         0.0,         0.0,
         0.0,         1.0,         1.0,         0.0,
         1.0,         0.0,         0.0,         0.0,
         0.0,         0.0,         0.0,         0.0,
         0.0,         0.0,         0.0,         0.0,
         0.0,         0.0,         0.0,         0.0,
         0.0,         0.0,         0.0,         0.0,
         0.0,         1.0,         2.0,         1.0,
         1.0,         0.0,         0.0,         1.0,
         0.0,         0.0,         0.0,         0.0,
         0.0,         1.0,         0.0,         0.0,
         0.0,         0.0,         0.0,         0.0,
         0.0,         0.0,         0.0,         0.0,
         0.0,         0.0,         1.0,         0.0,
         0.0,         0.0,         0.0,         0.0,
         0.0,         0.0,         0.0,         1.0,
         0.0,         0.0,         0.0,         0.0,
         0.0,         0.0,         0.0,         0.0,
         0.0,         1.0,         0.0,         2.0,
         0.0,         0.0,         0.0,         0.0,
         0.0,         2.0,         0.0,         0.0,
         0.0,         0.0,         0.0,         0.0,
         0.0,         0.0,         0.0,         0.0,
         0.0,         0.0,         0.0,         0.0,
         0.0,         1.0,         0.0,         0.0,
         0.0,         0.0,         0.0,         0.0,
         0.0,         0.0,         0.0,         0.0,
         0.0,         0.0,         0.0,         0.0,
         0.0,         0.0,         0.0,         1.0,
         0.0,         1.0,         0.0,         0.0,
         0.0,         0.0,         0.0,         0.0,
         0.0,         0.0,         0.0,         0.0,
         0.0,         0.0,         0.0,         0.0,
         0.0,         0.0,         0.0,         0.0,
         0.0,         0.0,         0.0,         0.0,
#ENDOFDATA   :