Folder: NeXLSpectrum/weave/XRF Stainless (part 2)

File: S_50kv_50_ma_Rh_vac_D1.msa
#FORMAT      : EMSA/MAS SPECTRAL DATA FILE
#VERSION     : 1.0
#TITLE       : Bruker AXS spectrum S_50kv_50_ma_Rh_vac_D1.txt
#DATE        : 19-NOV-2019
#TIME        : 11:29
#OWNER       : Bruker AXS
#NPOINTS     : 4096.0
#NCOLUMNS    : 4.0
#XUNITS      : keV
#YUNITS      : Counts
#DATATYPE    : Y
#XPERCHAN    : 0.0099990
#OFFSET      : -0.9553045
#SIGNALTYPE  : EDS
#CHOFFSET    : 96
#LIVETIME  -s: 120.013
#REALTIME  -s: 122.159
##RTDET      : XFlash 430
#EDSDET      :
#TDEADLYR -cm: 0.000003
#TACTLYR  -cm: 0.045
##FANO       : 0.1135598
##MNFWHM -keV: 0.1439521
##IDENT      : FeSiTiCrCuAsRhSnZrSNi
#SPECTRUM    :
         0.0,         0.0,         0.0,         0.0,
         0.0,         0.0,         0.0,         0.0,
         0.0,         0.0,         0.0,         0.0,
         1.0,         1.0,         2.0,         0.0,
    146171.0,    133527.0,    109879.0,     82446.0,
         0.0,         1.0,         0.0,         0.0,
       157.0,       117.0,       150.0,       136.0,
        71.0,        67.0,       102.0,        92.0,
        79.0,        83.0,        93.0,        88.0,
        83.0,        88.0,        90.0,        82.0,
        84.0,        88.0,        85.0,        88.0,
        85.0,        98.0,       101.0,       123.0,
       172.0,       200.0,       198.0,       204.0,
      1070.0,      1643.0,      2647.0,      4413.0,
     12286.0,      9144.0,      7414.0,      6425.0,
        41.0,        44.0,        52.0,        54.0,
        83.0,        84.0,        75.0,        68.0,
         9.0,         7.0,        10.0,         9.0,
         7.0,         9.0,         8.0,         5.0,
        11.0,         6.0,        11.0,         9.0,
         8.0,        11.0,         9.0,         8.0,
        14.0,        15.0,        13.0,        14.0,
        19.0,        18.0,        21.0,        18.0,
        43.0,        42.0,        32.0,        30.0,
        35.0,        35.0,        33.0,        29.0,
        41.0,        29.0,        31.0,        30.0,
        33.0,        32.0,        33.0,        37.0,
        34.0,        40.0,        34.0,        35.0,
        29.0,        31.0,        35.0,        34.0,
        42.0,        41.0,        40.0,        43.0,
        63.0,        60.0,        55.0,        61.0,
        70.0,        82.0,        84.0,        82.0,
        96.0,        83.0,        86.0,       105.0,
       115.0,       127.0,       123.0,       114.0,
       116.0,       112.0,       111.0,       124.0,
       135.0,       135.0,       128.0,       142.0,
       152.0,       152.0,       134.0,       131.0,
       155.0,       138.0,       150.0,       167.0,
       169.0,       147.0,       143.0,       145.0,
       158.0,       145.0,       140.0,       150.0,
       182.0,       166.0,       164.0,       159.0,
       170.0,       183.0,       178.0,       175.0,
       160.0,       183.0,       184.0,       174.0,
       182.0,       199.0,       184.0,       191.0,
       191.0,       187.0,       176.0,       188.0,
       183.0,       192.0,       199.0,       192.0,
       197.0,       192.0,       202.0,       195.0,
       208.0,       203.0,       202.0,       216.0,
       215.0,       213.0,       214.0,       209.0,
       221.0,       216.0,       203.0,       213.0,
       214.0,       208.0,       221.0,       221.0,
       214.0,       203.0,       202.0,       203.0,
       206.0,       207.0,       203.0,       192.0,
       187.0,       184.0,       188.0,       186.0,
       166.0,       181.0,       170.0,       167.0,
       166.0,       170.0,       176.0,       169.0,
       165.0,       174.0,       181.0,       178.0,
       149.0,       152.0,       167.0,       160.0,
       138.0,       151.0,       143.0,       137.0,
       117.0,       130.0,       137.0,       134.0,
       132.0,       131.0,       118.0,       119.0,
       117.0,       123.0,       120.0,       118.0,
       132.0,       120.0,       127.0,       118.0,
       130.0,       119.0,        99.0,        98.0,
        95.0,       114.0,       109.0,       105.0,
       109.0,       101.0,       105.0,       108.0,
        84.0,        90.0,       104.0,        94.0,
        91.0,        98.0,       103.0,        89.0,
        88.0,       101.0,        96.0,        76.0,
        79.0,        74.0,        93.0,        70.0,
        67.0,        72.0,        61.0,        68.0,
        70.0,        74.0,        65.0,        61.0,
        70.0,        67.0,        57.0,        66.0,
        58.0,        58.0,        66.0,        62.0,
        69.0,        52.0,        68.0,        68.0,
        63.0,        62.0,        61.0,        59.0,
        53.0,        44.0,        53.0,        63.0,
        51.0,        68.0,        58.0,        54.0,
        63.0,        69.0,        64.0,        68.0,
        57.0,        76.0,        52.0,        64.0,
        69.0,        75.0,        82.0,        79.0,
        78.0,       101.0,        90.0,       101.0,
       143.0,       147.0,       158.0,       156.0,
       231.0,       238.0,       204.0,       215.0,
       167.0,       155.0,       146.0,       124.0,
        97.0,        78.0,        92.0,        81.0,
        65.0,        59.0,        74.0,        50.0,
        64.0,        77.0,        80.0,        74.0,
       207.0,       184.0,       205.0,       188.0,
        50.0,        47.0,        51.0,        47.0,
        26.0,        27.0,        27.0,        30.0,
        41.0,        37.0,        28.0,        38.0,
        37.0,        31.0,        46.0,        39.0,
        37.0,        39.0,        36.0,        40.0,
        30.0,        34.0,        29.0,        26.0,
        25.0,        18.0,         8.0,        12.0,
        16.0,        13.0,        16.0,        25.0,
        14.0,        16.0,        14.0,        18.0,
        18.0,        17.0,        20.0,        17.0,
        25.0,        29.0,        26.0,        21.0,
        13.0,         9.0,        12.0,        13.0,
        11.0,        12.0,        10.0,         9.0,
         6.0,         3.0,         3.0,        12.0,
         9.0,         8.0,        14.0,         9.0,
         8.0,        11.0,         4.0,         3.0,
         6.0,         7.0,         7.0,         7.0,
         6.0,         5.0,         6.0,         9.0,
         4.0,         5.0,         6.0,        10.0,
         3.0,         4.0,         6.0,         5.0,
         6.0,         5.0,         6.0,         7.0,
         8.0,         5.0,         5.0,         5.0,
         1.0,         2.0,         6.0,         6.0,
         6.0,         4.0,         3.0,         4.0,
         2.0,         4.0,         3.0,         1.0,
         4.0,         5.0,         3.0,         2.0,
         4.0,         5.0,         4.0,         5.0,
         5.0,         5.0,         4.0,         2.0,
         5.0,         5.0,         4.0,         4.0,
         2.0,         3.0,         4.0,         5.0,
         4.0,         2.0,         1.0,         3.0,
         3.0,         1.0,         1.0,         2.0,
         0.0,         1.0,         2.0,         1.0,
         2.0,         3.0,         2.0,         2.0,
         3.0,         3.0,         4.0,         3.0,
         2.0,         3.0,         4.0,         4.0,
         1.0,         3.0,         2.0,         4.0,
         1.0,         1.0,         2.0,         2.0,
         3.0,         2.0,         2.0,         3.0,
         2.0,         1.0,         4.0,         2.0,
         1.0,         0.0,         0.0,         3.0,
         0.0,         1.0,         1.0,         0.0,
         3.0,         3.0,         1.0,         2.0,
         2.0,         3.0,         1.0,         0.0,
         1.0,         0.0,         1.0,         1.0,
         2.0,         1.0,         0.0,         1.0,
         1.0,         1.0,         1.0,         0.0,
         3.0,         1.0,         1.0,         2.0,
         2.0,         2.0,         0.0,         1.0,
         0.0,         1.0,         0.0,         1.0,
         1.0,         1.0,         1.0,         0.0,
         0.0,         0.0,         2.0,         0.0,
         0.0,         1.0,         1.0,         0.0,
         0.0,         2.0,         1.0,         1.0,
         0.0,         1.0,         1.0,         1.0,
         0.0,         0.0,         0.0,         0.0,
         0.0,         2.0,         0.0,         0.0,
         1.0,         0.0,         1.0,         1.0,
         0.0,         0.0,         0.0,         0.0,
         0.0,         0.0,         1.0,         0.0,
         0.0,         0.0,         0.0,         0.0,
         1.0,         0.0,         0.0,         1.0,
         1.0,         0.0,         0.0,         1.0,
         0.0,         0.0,         0.0,         0.0,
         1.0,         0.0,         0.0,         0.0,
         1.0,         0.0,         0.0,         0.0,
         0.0,         0.0,         0.0,         2.0,
         2.0,         0.0,         0.0,         1.0,
         1.0,         0.0,         1.0,         0.0,
         1.0,         0.0,         0.0,         0.0,
         0.0,         0.0,         0.0,         1.0,
         0.0,         0.0,         0.0,         0.0,
         1.0,         1.0,         1.0,         0.0,
         1.0,         0.0,         0.0,         0.0,
         1.0,         0.0,         0.0,         0.0,
         0.0,         0.0,         0.0,         0.0,
         0.0,         0.0,         0.0,         0.0,
         0.0,         0.0,         0.0,         0.0,
         1.0,         1.0,         0.0,         1.0,
         0.0,         0.0,         0.0,         0.0,
         0.0,         1.0,         0.0,         0.0,
         1.0,         0.0,         0.0,         0.0,
         0.0,         0.0,         0.0,         0.0,
#ENDOFDATA   :

File: Si_50kv_50_ma_Rh_vac_D1.msa
#FORMAT      : EMSA/MAS SPECTRAL DATA FILE
#VERSION     : 1.0
#TITLE       : Bruker AXS spectrum Si_50kv_50_ma_Rh_vac_D1.txt
#DATE        : 19-NOV-2019
#TIME        : 11:27
#OWNER       : Bruker AXS
#NPOINTS     : 4096.0
#NCOLUMNS    : 4.0
#XUNITS      : keV
#YUNITS      : Counts
#DATATYPE    : Y
#XPERCHAN    : 0.0099990
#OFFSET      : -0.9553045
#SIGNALTYPE  : EDS
#CHOFFSET    : 96
#LIVETIME  -s: 119.986
#REALTIME  -s: 121.022
##RTDET      : XFlash 430
#EDSDET      :
#TDEADLYR -cm: 0.000003
#TACTLYR  -cm: 0.045
##FANO       : 0.1135598
##MNFWHM -keV: 0.1438463
##IDENT      : FeNiSiTiCrCuAsRhSnZrS
#SPECTRUM    :
         0.0,         0.0,         0.0,         0.0,
         0.0,         0.0,         0.0,         0.0,
         0.0,         0.0,         0.0,         0.0,
         1.0,         0.0,         0.0,         2.0,
    147055.0,    134015.0,    110256.0,     82414.0,
         0.0,         0.0,         0.0,         0.0,
        31.0,        28.0,        29.0,        27.0,
        29.0,        14.0,        23.0,        24.0,
        12.0,        18.0,        26.0,        23.0,
        25.0,        28.0,        34.0,        31.0,
       103.0,        95.0,       108.0,       111.0,
     16476.0,     21873.0,     27337.0,     32224.0,
       219.0,       123.0,        82.0,        51.0,
         6.0,         6.0,         5.0,         4.0,
         5.0,         8.0,        10.0,         9.0,
        14.0,        26.0,        33.0,        33.0,
        22.0,        21.0,        23.0,        21.0,
         3.0,         4.0,         5.0,         7.0,
         8.0,         8.0,        10.0,        11.0,
         1.0,         0.0,         0.0,         5.0,
         3.0,         4.0,         9.0,         4.0,
         4.0,         4.0,         5.0,         8.0,
         6.0,         6.0,         7.0,         5.0,
         5.0,         3.0,         6.0,         8.0,
         6.0,         7.0,         7.0,         7.0,
         8.0,        16.0,        10.0,        10.0,
       196.0,       213.0,       256.0,       294.0,
      1021.0,       996.0,       973.0,       971.0,
       273.0,       243.0,       192.0,       165.0,
        31.0,        29.0,        23.0,        25.0,
        29.0,        28.0,        29.0,        28.0,
        29.0,        24.0,        27.0,        26.0,
        22.0,        23.0,        29.0,        34.0,
        30.0,        35.0,        43.0,        39.0,
        37.0,        33.0,        35.0,        37.0,
        61.0,        54.0,        50.0,        62.0,
        51.0,        52.0,        54.0,        45.0,
        50.0,        58.0,        63.0,        59.0,
        64.0,        62.0,        60.0,        64.0,
        73.0,        74.0,        77.0,        78.0,
        86.0,        81.0,        84.0,        89.0,
       120.0,       114.0,       112.0,       114.0,
       146.0,       136.0,       132.0,       131.0,
       146.0,       142.0,       159.0,       153.0,
       174.0,       162.0,       161.0,       184.0,
       216.0,       226.0,       226.0,       211.0,
       191.0,       166.0,       159.0,       160.0,
       138.0,       134.0,       130.0,       115.0,
       133.0,       130.0,       116.0,       109.0,
       118.0,       108.0,       104.0,       102.0,
       115.0,       113.0,       116.0,       113.0,
       125.0,       129.0,       128.0,       139.0,
       128.0,       127.0,       121.0,       138.0,
       142.0,       154.0,       152.0,       156.0,
       146.0,       145.0,       142.0,       139.0,
       156.0,       148.0,       146.0,       148.0,
       163.0,       169.0,       162.0,       146.0,
       193.0,       207.0,       209.0,       221.0,
       260.0,       271.0,       275.0,       276.0,
       246.0,       244.0,       232.0,       229.0,
       176.0,       176.0,       180.0,       161.0,
       141.0,       144.0,       136.0,       138.0,
        93.0,       110.0,       114.0,       117.0,
       106.0,       104.0,       112.0,        96.0,
       103.0,       110.0,       102.0,       102.0,
       121.0,       107.0,       108.0,       108.0,
       112.0,       130.0,       125.0,       125.0,
       163.0,       146.0,       166.0,       151.0,
       159.0,       146.0,       161.0,       138.0,
       139.0,       136.0,       136.0,       130.0,
       102.0,       110.0,        99.0,       109.0,
        85.0,       101.0,       103.0,       101.0,
        99.0,        93.0,        88.0,        95.0,
       120.0,       107.0,        84.0,        91.0,
        78.0,        78.0,        82.0,        84.0,
        78.0,        68.0,        55.0,        69.0,
        62.0,        75.0,        71.0,        72.0,
        78.0,        85.0,        79.0,        69.0,
        84.0,        85.0,        84.0,       100.0,
        92.0,        90.0,       111.0,       114.0,
        95.0,       115.0,       124.0,       119.0,
       138.0,       130.0,       150.0,       155.0,
       240.0,       273.0,       270.0,       261.0,
       348.0,       351.0,       372.0,       351.0,
       234.0,       205.0,       179.0,       225.0,
       126.0,       108.0,       133.0,       141.0,
        85.0,        95.0,        83.0,        95.0,
        93.0,        99.0,        74.0,        96.0,
       174.0,       176.0,       188.0,       191.0,
        73.0,        76.0,        47.0,        74.0,
        39.0,        41.0,        45.0,        50.0,
        49.0,        61.0,        54.0,        58.0,
        71.0,        61.0,        56.0,        58.0,
        46.0,        57.0,        58.0,        62.0,
        36.0,        34.0,        40.0,        34.0,
        35.0,        27.0,        32.0,        27.0,
        25.0,        31.0,        21.0,        26.0,
        24.0,        17.0,        17.0,        14.0,
        27.0,        21.0,        36.0,        27.0,
        32.0,        28.0,        24.0,        24.0,
        17.0,        15.0,        12.0,        18.0,
        14.0,         9.0,        10.0,         9.0,
        12.0,         7.0,        14.0,        11.0,
        14.0,         9.0,        10.0,         5.0,
         8.0,        13.0,         8.0,         9.0,
         6.0,         6.0,         7.0,        11.0,
         8.0,        12.0,         9.0,         9.0,
         9.0,        10.0,        11.0,        10.0,
        12.0,         6.0,         3.0,         6.0,
         6.0,        11.0,         8.0,         8.0,
         6.0,         6.0,         3.0,         9.0,
         8.0,         6.0,         5.0,         6.0,
         7.0,         7.0,         5.0,         7.0,
         6.0,         5.0,         5.0,         9.0,
         7.0,         6.0,         4.0,         5.0,
         6.0,         8.0,         6.0,         4.0,
         3.0,         4.0,         3.0,         6.0,
         3.0,         4.0,         3.0,         4.0,
         4.0,         7.0,         4.0,         7.0,
         3.0,         4.0,         2.0,         3.0,
         1.0,         1.0,         1.0,         2.0,
         2.0,         5.0,         3.0,         2.0,
         4.0,         3.0,         4.0,         3.0,
         4.0,         4.0,         2.0,         6.0,
         0.0,         6.0,         5.0,         5.0,
         1.0,         1.0,         3.0,         2.0,
         4.0,         2.0,         3.0,         3.0,
         1.0,         2.0,         2.0,         0.0,
         4.0,         5.0,         1.0,         1.0,
         1.0,         2.0,         4.0,         2.0,
         3.0,         4.0,         3.0,         1.0,
         2.0,         3.0,         3.0,         4.0,
         1.0,         2.0,         3.0,         1.0,
         1.0,         3.0,         2.0,         1.0,
         0.0,         1.0,         2.0,         1.0,
         3.0,         1.0,         1.0,         1.0,
         0.0,         2.0,         2.0,         1.0,
         1.0,         0.0,         1.0,         2.0,
         2.0,         1.0,         2.0,         0.0,
         2.0,         3.0,         1.0,         1.0,
         2.0,         0.0,         2.0,         1.0,
         0.0,         0.0,         0.0,         0.0,
         1.0,         3.0,         2.0,         3.0,
         0.0,         1.0,         1.0,         1.0,
         1.0,         0.0,         0.0,         2.0,
         0.0,         1.0,         1.0,         0.0,
         2.0,         2.0,         0.0,         2.0,
         1.0,         1.0,         0.0,         1.0,
         0.0,         1.0,         0.0,         1.0,
         0.0,         2.0,         0.0,         0.0,
         0.0,         1.0,         1.0,         0.0,
         0.0,         0.0,         1.0,         1.0,
         0.0,         0.0,         0.0,         3.0,
         0.0,         2.0,         0.0,         0.0,
         1.0,         0.0,         1.0,         0.0,
         1.0,         0.0,         2.0,         0.0,
         1.0,         1.0,         1.0,         0.0,
         1.0,         0.0,         0.0,         0.0,
         0.0,         1.0,         0.0,         1.0,
         0.0,         0.0,         0.0,         0.0,
         0.0,         0.0,         0.0,         0.0,
         0.0,         0.0,         0.0,         0.0,
         1.0,         0.0,         0.0,         0.0,
         0.0,         1.0,         3.0,         1.0,
         0.0,         0.0,         1.0,         0.0,
         0.0,         0.0,         0.0,         0.0,
         1.0,         0.0,         0.0,         0.0,
         0.0,         1.0,         0.0,         0.0,
         0.0,         0.0,         0.0,         0.0,
         0.0,         0.0,         0.0,         0.0,
         0.0,         0.0,         0.0,         0.0,
         0.0,         0.0,         0.0,         0.0,
#ENDOFDATA   :